Time [s],Position [mm],Power [W]
0.002,0,0.429209
2.069,0.04,0.428906
4.631,0.08,0.428906
7.182,0.12,0.428986
9.755,0.16,0.428891
12.358,0.2,0.429129
14.916,0.24000000000000002,0.429097
17.471,0.28,0.429177
20.030,0.32,0.429209
22.585,0.36,0.429304
25.159,0.39999999999999997,0.429479
27.715,0.43999999999999995,0.429256
30.271,0.4799999999999999,0.429209
32.827,0.5199999999999999,0.429177
35.383,0.5599999999999999,0.428986
37.940,0.6,0.429288
40.496,0.64,0.429209
43.052,0.68,0.429304
45.610,0.7200000000000001,0.429113
48.166,0.7600000000000001,0.429145
50.737,0.8000000000000002,0.42905
53.294,0.8400000000000002,0.42905
55.850,0.8800000000000002,0.429288
58.415,0.9200000000000003,0.429224
60.963,0.9600000000000003,0.429272
63.584,1.0000000000000002,0.429304
66.140,1.0400000000000003,0.429145
68.873,1.0800000000000003,0.429383
71.429,1.1200000000000003,0.429415
74.257,1.1600000000000004,0.429527
76.814,1.2000000000000004,0.429352
79.369,1.2400000000000004,0.429415
81.926,1.2800000000000005,0.429558
84.483,1.3200000000000005,0.429511
87.038,1.3600000000000005,0.429558
89.594,1.4000000000000006,0.429479
92.152,1.4400000000000006,0.429527
94.709,1.4800000000000006,0.429383
97.296,1.5200000000000007,0.429368
99.853,1.5600000000000007,0.429527
102.408,1.6000000000000008,0.429717
104.969,1.6400000000000008,0.429654
107.521,1.6800000000000008,0.429638
110.079,1.7200000000000009,0.429336
112.635,1.760000000000001,0.429622
115.193,1.800000000000001,0.429781
117.747,1.840000000000001,0.429638
120.304,1.880000000000001,0.429733
122.863,1.920000000000001,0.429717
125.417,1.960000000000001,0.430051
127.973,2.000000000000001,0.429574
130.531,2.040000000000001,0.429352
133.087,2.080000000000001,0.429654
135.644,2.120000000000001,0.429352
138.215,2.160000000000001,0.429606
140.787,2.200000000000001,0.42967
143.344,2.240000000000001,0.429638
145.900,2.280000000000001,0.429383
148.456,2.320000000000001,0.429463
151.014,2.360000000000001,0.429654
153.569,2.4000000000000012,0.429749
156.126,2.4400000000000013,0.42959
158.682,2.4800000000000013,0.429892
161.239,2.5200000000000014,0.429558
163.826,2.5600000000000014,0.429622
166.382,2.6000000000000014,0.429702
168.938,2.6400000000000015,0.429415
171.496,2.6800000000000015,0.429797
174.052,2.7200000000000015,0.429527
176.661,2.7600000000000016,0.429558
179.212,2.8000000000000016,0.429733
181.770,2.8400000000000016,0.429924
184.325,2.8800000000000017,0.429606
186.882,2.9200000000000017,0.429511
189.438,2.9600000000000017,0.429686
191.996,3.0000000000000018,0.429845
194.551,3.040000000000002,0.429511
197.107,3.080000000000002,0.429813
199.666,3.120000000000002,0.429813
202.350,3.160000000000002,0.429574
204.906,3.200000000000002,0.429717
207.462,3.240000000000002,0.429877
210.019,3.280000000000002,0.430322
212.574,3.320000000000002,0.429829
215.132,3.360000000000002,0.430099
217.768,3.400000000000002,0.429972
220.323,3.440000000000002,0.430067
222.881,3.480000000000002,0.429845
225.435,3.5200000000000022,0.430083
227.993,3.5600000000000023,0.430195
230.549,3.6000000000000023,0.430115
233.107,3.6400000000000023,0.42994
235.663,3.6800000000000024,0.430083
238.234,3.7200000000000024,0.43021
240.793,3.7600000000000025,0.430083
243.348,3.8000000000000025,0.430067
245.905,3.8400000000000025,0.43002
248.460,3.8800000000000026,0.430051
251.020,3.9200000000000026,0.430036
253.638,3.9600000000000026,0.429892
256.193,4.000000000000003,0.430226
258.751,4.040000000000003,0.430226
261.307,4.080000000000003,0.430179
263.863,4.120000000000003,0.430115
266.419,4.160000000000003,0.430258
268.975,4.200000000000003,0.43029
271.534,4.240000000000003,0.430163
274.088,4.280000000000003,0.430226
276.661,4.320000000000003,0.430179
279.233,4.360000000000003,0.430179
281.789,4.400000000000003,0.430306
284.377,4.440000000000003,0.430401
286.933,4.480000000000003,0.430179
289.617,4.520000000000003,0.430195
292.189,4.560000000000003,0.430179
294.747,4.600000000000003,0.430417
297.304,4.640000000000003,0.430338
299.861,4.680000000000003,0.430385
302.416,4.720000000000003,0.430306
305.276,4.760000000000003,0.430242
307.833,4.800000000000003,0.430274
310.408,4.840000000000003,0.430306
312.960,4.8800000000000034,0.43029
315.521,4.9200000000000035,0.430195
318.074,4.9600000000000035,0.430354
320.632,5.0000000000000036,0.430513
323.186,5.040000000000004,0.43064
325.744,5.080000000000004,0.430354
328.301,5.120000000000004,0.430242
330.856,5.160000000000004,0.430354
333.414,5.200000000000004,0.430449
335.969,5.240000000000004,0.43064
338.525,5.280000000000004,0.430481
341.081,5.320000000000004,0.430592
343.637,5.360000000000004,0.430385
346.204,5.400000000000004,0.430688
348.767,5.440000000000004,0.430815
351.323,5.480000000000004,0.430497
353.880,5.520000000000004,0.430688
356.436,5.560000000000004,0.430688
358.998,5.600000000000004,0.430576
361.549,5.640000000000004,0.430688
364.104,5.680000000000004,0.430544
366.662,5.720000000000004,0.430608
369.249,5.760000000000004,0.430703
371.822,5.800000000000004,0.430401
374.380,5.840000000000004,0.430322
376.935,5.880000000000004,0.430449
379.603,5.920000000000004,0.430656
382.161,5.960000000000004,0.430783
384.715,6.000000000000004,0.430894
387.305,6.0400000000000045,0.430799
389.861,6.0800000000000045,0.431292
392.530,6.1200000000000045,0.431244
395.087,6.160000000000005,0.430958
397.833,6.200000000000005,0.430878
400.391,6.240000000000005,0.431053
402.947,6.280000000000005,0.43091
405.503,6.320000000000005,0.430894
408.061,6.360000000000005,0.431085
410.616,6.400000000000005,0.431196
413.173,6.440000000000005,0.430894
415.729,6.480000000000005,0.430831
418.285,6.520000000000005,0.430894
420.843,6.560000000000005,0.431212
423.398,6.600000000000005,0.430926
425.954,6.640000000000005,0.431022
428.511,6.680000000000005,0.430799
431.068,6.720000000000005,0.431181
433.624,6.760000000000005,0.431356
436.180,6.800000000000005,0.431181
438.736,6.840000000000005,0.43126
441.294,6.880000000000005,0.431419
443.882,6.920000000000005,0.431451
446.437,6.960000000000005,0.431212
448.997,7.000000000000005,0.431244
451.552,7.040000000000005,0.431085
454.108,7.080000000000005,0.430894
456.679,7.120000000000005,0.430958
459.239,7.1600000000000055,0.431037
461.791,7.2000000000000055,0.430735
464.348,7.2400000000000055,0.430735
466.904,7.280000000000006,0.430656
469.462,7.320000000000006,0.430767
472.018,7.360000000000006,0.430847
474.573,7.400000000000006,0.430974
477.131,7.440000000000006,0.430926
479.685,7.480000000000006,0.43091
482.292,7.520000000000006,0.430735
484.846,7.560000000000006,0.430815
487.402,7.600000000000006,0.43064
490.312,7.640000000000006,0.430608
492.888,7.680000000000006,0.430751
495.440,7.720000000000006,0.430656
497.996,7.760000000000006,0.430799
500.553,7.800000000000006,0.430878
503.108,7.840000000000006,0.430926
505.664,7.880000000000006,0.431117
508.224,7.920000000000006,0.430783
510.776,7.960000000000006,0.430942
513.335,8.000000000000005,0.431101
515.890,8.040000000000004,0.430958
518.447,8.080000000000004,0.431149
521.004,8.120000000000003,0.430815
523.560,8.160000000000002,0.430592
526.307,8.200000000000001,0.43099
528.865,8.24,0.430576
531.437,8.28,0.430751
534.008,8.319999999999999,0.430815
536.577,8.359999999999998,0.430878
539.186,8.399999999999997,0.431165
541.759,8.439999999999996,0.430942
544.316,8.479999999999995,0.431133
546.871,8.519999999999994,0.430894
549.426,8.559999999999993,0.430958
551.984,8.599999999999993,0.430862
554.540,8.639999999999992,0.430878
557.096,8.67999999999999,0.430783
559.652,8.71999999999999,0.430958
562.209,8.75999999999999,0.430958
564.765,8.799999999999988,0.430862
567.323,8.839999999999987,0.430831
569.926,8.879999999999987,0.431212
572.483,8.919999999999986,0.430624
575.040,8.959999999999985,0.430783
577.611,8.999999999999984,0.430831
580.167,9.039999999999983,0.430958
582.724,9.079999999999982,0.430719
585.279,9.119999999999981,0.430719
587.854,9.15999999999998,0.430719
590.410,9.19999999999998,0.430497
592.965,9.239999999999979,0.430624
595.538,9.279999999999978,0.430688
598.096,9.319999999999977,0.430672
600.653,9.359999999999976,0.430592
603.207,9.399999999999975,0.430449
605.764,9.439999999999975,0.430513
608.320,9.479999999999974,0.430529
610.892,9.519999999999973,0.430592
613.450,9.559999999999972,0.430688
616.005,9.599999999999971,0.430417
618.674,9.63999999999997,0.430751
621.230,9.67999999999997,0.430179
623.786,9.719999999999969,0.430051
626.344,9.759999999999968,0.430306
628.899,9.799999999999967,0.429797
631.456,9.839999999999966,0.429717
634.013,9.879999999999965,0.43037
636.567,9.919999999999964,0.430306
639.125,9.959999999999964,0.430195
641.696,9.999999999999963,0.430004
644.253,10.039999999999962,0.429654
646.809,10.079999999999961,0.429988
649.366,10.11999999999996,0.429749
651.921,10.15999999999996,0.430195
654.479,10.199999999999958,0.429527
657.035,10.239999999999958,0.429431
659.607,10.279999999999957,0.429479
662.166,10.319999999999956,0.42932
664.722,10.359999999999955,0.429065
667.339,10.399999999999954,0.429352
669.896,10.439999999999953,0.429797
672.453,10.479999999999952,0.429797
675.009,10.519999999999952,0.429463
677.566,10.55999999999995,0.429415
680.123,10.59999999999995,0.429018
682.678,10.639999999999949,0.429288
685.236,10.679999999999948,0.429288
687.792,10.719999999999947,0.42862
690.347,10.759999999999946,0.42827
692.905,10.799999999999946,0.428557
695.461,10.839999999999945,0.428334
698.018,10.879999999999944,0.427936
700.574,10.919999999999943,0.42773
703.131,10.959999999999942,0.427889
705.686,10.999999999999941,0.427237
708.244,11.03999999999994,0.427586
710.799,11.07999999999994,0.427539
713.359,11.119999999999939,0.427586
715.993,11.159999999999938,0.427761
718.550,11.199999999999937,0.427666
721.154,11.239999999999936,0.427014
723.712,11.279999999999935,0.426887
726.268,11.319999999999935,0.42377
728.823,11.359999999999934,0.426346
731.379,11.399999999999933,0.424072
733.935,11.439999999999932,0.427062
736.492,11.479999999999931,0.426044
739.048,11.51999999999993,0.422386
741.605,11.55999999999993,0.423022
744.161,11.599999999999929,0.422291
746.718,11.639999999999928,0.422338
749.274,11.679999999999927,0.422195
751.830,11.719999999999926,0.425535
754.386,11.759999999999925,0.425646
756.942,11.799999999999924,0.425058
759.501,11.839999999999923,0.425185
762.072,11.879999999999923,0.424469
764.644,11.919999999999922,0.42501
767.202,11.959999999999921,0.423833
769.758,11.99999999999992,0.424803
772.316,12.03999999999992,0.42528
774.870,12.079999999999918,0.425503
777.520,12.119999999999918,0.108505
780.079,12.159999999999917,0.0324985
782.635,12.199999999999916,0.026633
785.191,12.239999999999915,0.0246106
788.035,12.279999999999914,0.356008
790.697,12.319999999999913,0.0178229
793.261,12.359999999999912,0.000189938
795.818,12.399999999999912,0.0978875
798.471,12.43999999999991,0.0556954
801.149,12.47999999999991,0.102504
803.694,12.519999999999909,0.0135426
806.315,12.559999999999908,0.0101448
809.696,12.599999999999907,0.126408
812.241,12.639999999999906,0.0146123
814.799,12.679999999999906,0.0496836
817.469,12.719999999999905,0.0167443
820.022,12.759999999999904,5.0274e-05
822.578,12.799999999999903,0.0240721
825.455,12.839999999999902,0.0104795
828.011,12.879999999999901,0.00963268
830.567,12.9199999999999,0.00952622
833.126,12.9599999999999,0.00947012
835.680,12.999999999999899,0.00945673
